Folder: Stress-Strain_Graph_from_tensile-test_of_mild-steel_UTM_Data/Stress-Strain_Graph_from_tensile-test_of_mild-steel_UTM_Data

Note: README.md
All Dimensions are in N and mm and mm^2

This Project will create Stress Strain Graph for the given data.

For this In cell 3 line 1 replace with your CSV File

Column 1 Must have Force And Column 2 must have Change in length if not change change in csv file or make change in cell 4 and 5 as per need.

In Cell 4 replace CrossSectionArea = 33.6 with your value of crossection of workpiece.

In cell 6 replace Gaugelength = 50 #in mm with your workpiece gauge length.

File: mild-stee-tensiletestdatal-nitish-&-monu11.csv
0,0,0
1090,0.172,32.3
1380,0.232,41
1660,0.292,49.3
1930,0.352,57.3
2210,0.412,65.8
2510,0.472,74.6
2820,0.532,84
3150,0.592,93.6
3490,0.652,104
3840,0.712,114
4200,0.772,125
4580,0.832,136
4960,0.892,148
5360,0.952,159
5760,1.01,171
6170,1.07,183
6590,1.13,196
7010,1.19,208
7430,1.25,221
7870,1.31,234
8280,1.37,246
8700,1.43,259
9100,1.49,271
9500,1.55,282
9880,1.61,294
10200,1.67,304
10500,1.73,312
10700,1.79,320
10900,1.85,325
11100,1.91,330
11100,1.97,331
11200,2.03,333
11200,2.09,334
11300,2.15,336
11300,2.21,337
11400,2.27,339
11500,2.33,340
11500,2.39,342
11500,2.45,342
11400,2.51,338
11300,2.57,337
11200,2.63,334
11200,2.69,334
11300,2.75,335
11300,2.81,337
11400,2.87,338
11300,2.93,337
11300,2.99,336
11400,3.05,339
11600,3.11,345
11700,3.17,349
11800,3.23,352
11900,3.29,355
12000,3.35,357
12100,3.41,360
12200,3.47,363
12300,3.53,365
12400,3.59,368
12500,3.65,370
12500,3.71,373
12600,3.77,375
12700,3.83,376
12800,3.89,379
12800,3.95,382
12900,4.01,384
13000,4.07,386
13000,4.13,388
13100,4.19,389
13200,4.25,391
13200,4.31,393
13300,4.37,395
13300,4.43,397
13400,4.49,398
13500,4.55,400
13500,4.61,402
13600,4.67,403
13600,4.73,405
13700,4.79,406
13700,4.85,408
13800,4.91,409
13800,4.97,411
13900,5.03,412
13900,5.09,413
13900,5.15,415
14000,5.21,416
14000,5.27,417
14100,5.33,418
14100,5.39,420
14200,5.45,421
14200,5.51,422
14200,5.57,423
14300,5.63,424
14300,5.69,425
14300,5.75,426
14400,5.81,427
14400,5.87,428
14400,5.93,429
14500,5.99,430
14500,6.05,431
14500,6.11,432
14600,6.17,433
14600,6.23,434
14600,6.29,435
14700,6.35,436
14700,6.41,437
14700,6.47,437
14700,6.53,438
14800,6.59,439
14800,6.65,440
14800,6.71,440
14800,6.77,441
14900,6.83,442
14900,6.89,443
14900,6.95,443
14900,7.01,444
14900,7.07,444
15000,7.13,445
15000,7.19,446
15000,7.25,446
15000,7.31,447
15100,7.37,448
15100,7.43,448
15100,7.49,449
15100,7.55,449
15100,7.61,450
15100,7.67,450
15200,7.73,451
15200,7.79,451
15200,7.85,452
15200,7.91,452
15200,7.97,453
15200,8.03,453
15300,8.09,454
15300,8.15,454
15300,8.21,455
15300,8.27,455
15300,8.33,455
15300,8.39,456
15300,8.45,456
15400,8.51,457
15400,8.57,457
15400,8.63,457
15400,8.69,458
15400,8.75,458
15400,8.81,458
15400,8.87,459
15400,8.93,459
15400,8.99,459
15500,9.05,460
15500,9.11,460
15500,9.17,460
15500,9.23,460
15500,9.29,461
15500,9.35,461
15500,9.41,461
15500,9.47,461
15500,9.53,462
15500,9.59,462
15500,9.65,462
15500,9.71,462
15600,9.77,463
15600,9.83,463
15600,9.89,463
15600,9.95,463
15600,10,463
15600,10.1,463
15600,10.1,464
15600,10.2,464
15600,10.3,464
15600,10.3,464
15600,10.4,464
15600,10.4,464
15600,10.5,464
15600,10.6,465
15600,10.6,465
15600,10.7,465
15600,10.7,465
15600,10.8,465
15600,10.9,465
15600,10.9,465
15700,11,465
15700,11,465
15700,11.1,465
15700,11.2,466
15700,11.2,466
15700,11.3,466
15700,11.3,466
15700,11.4,466
15700,11.5,466
15700,11.5,466
15700,11.6,466
15700,11.6,466
15700,11.7,466
15700,11.8,466
15700,11.8,466
15700,11.9,466
15700,11.9,466
15700,12,466
15700,12.1,466
15700,12.1,466
15700,12.2,466
15700,12.2,466
15700,12.3,465
15600,12.4,465
15600,12.4,465
15600,12.5,465
15600,12.5,465
15600,12.6,465
15600,12.7,464
15600,12.7,464
15600,12.8,464
15600,12.8,463
15600,12.9,463
15500,13,462
15500,13,461
15500,13.1,461
15500,13.1,460
15400,13.2,459
15400,13.3,457
15300,13.3,456
15300,13.4,455
15200,13.4,453
15200,13.5,452
15100,13.6,450
15100,13.6,448
15000,13.7,446
14900,13.7,444
14900,13.8,442
14800,13.9,439
14700,13.9,437
14600,14,434
14500,14,431
14400,14.1,428
14300,14.2,425
14200,14.2,422
14100,14.3,418
14000,14.3,415
13800,14.4,411
13700,14.5,407
13500,14.5,403
13400,14.6,398
13200,14.6,394
13100,14.7,389
12900,14.8,384
12700,14.8,379
12500,14.9,373
12300,14.9,367
12100,15,360
11900,15.1,353
11800,15.1,350